File: data/Cu NIST test 10k_5.dat
# XDI/1.0
# Element.symbol: Cu
# Element.edge: K
# Column.1: energy eV
# Column.2: EnergySetpoint
# Column.3: EnergyFeedback
# Column.4: ScalerDwellTimeFeedback
# Column.5: I0Detector_DarkCorrect
# Column.6: I1Detector_DarkCorrect
# Column.7: I2Detector_DarkCorrect
#/////////////////////////////////
# Scan: Cu NIST test 10k #5
# Date: 2019 02 25 02:49:31
#
# SR1 current: 192.734 mA
# Settling time: 0.1 s
# I0 amplifier sensitivity: 2 uA/V
# I1 amplifier sensitivity: 2 uA/V
# I2 amplifier sensitivity: 1 uA/V
#
# Endstation
# BioXAS Beamline - Main Endstation
#
# Regions Of Interest
# Cu Ka1	7864 eV	8261 eV
#
# Scanned Regions
# Start:	8829 eV	Step: 10 eV	End:	8949 eV	Time: 5 s
#
# Start:	8949 eV	Step: 0.5 eV	End:	9009 eV	Time: 10 s
#
# Start: 9009 eV	Delta: 0.05 k	End: 10 k	Start time: 10 s	Maximum time (used with variable integration time): 15 s
#
# Dark Current Values
# I0Detector: 768.667 counts
# I1Detector: 1281.13 counts
# I2Detector: 1166.33 counts
# Cu Ka1: 0 counts
# Cu Ka1_1: 0 counts
# Cu Ka1_2: 0 counts
# Cu Ka1_4: 0 counts
# Cu Ka1_7: 0 counts
# Cu Ka1_8: 0 counts
# Cu Ka1_9: 0 counts
# Cu Ka1_10: 0 counts
# Cu Ka1_12: 0 counts
# Cu Ka1_13: 0 counts
# Cu Ka1_14: 0 counts
# Cu Ka1_15: 0 counts
# Cu Ka1_17: 0 counts
# Cu Ka1_18: 0 counts
# Cu Ka1_19: 0 counts
# Cu Ka1_20: 0 counts
# Cu Ka1_21: 0 counts
# Cu Ka1_23: 0 counts
# Cu Ka1_24: 0 counts
# Cu Ka1_25: 0 counts
# Cu Ka1_26: 0 counts
# Cu Ka1_28: 0 counts
# Cu Ka1_29: 0 counts
# Cu Ka1_30: 0 counts
# Cu Ka1_31: 0 counts
# Cu Ka1_32: 0 counts
#
#
#
# Notes:
#
#
# #----------------------------------
# EnergySetpoint.X	EnergySetpoint	EnergyFeedback	ScalerDwellTimeFeedback	I0Detector_DarkCorrect	I1Detector_DarkCorrect	I2Detector_DarkCorrect

8829	8829	8829	5000	359553.67	-63.6667	-55.6667
8839	8839	8839	5000	354511.67	-66.6667	-57.6667
8849	8849	8849	5000	349562.67	-59.6667	-48.6667
8859	8859	8859	5000	344781.67	-71.6667	-53.6667
8869	8869	8869	5000	340279.67	-72.6667	-54.6667
8879	8879	8879	5000	336041.67	-61.6667	-53.6667
8889	8889	8889	5000	332046.67	-64.6667	-53.6667
8899	8899	8899	5000	328270.67	-66.6667	-53.6667
8909	8909	8909	5000	324621.67	-71.6667	-50.6667
8918.997	8919	8918.997	5000	321287.67	-76.6667	-52.6667
8929	8929	8929	5000	318009.67	-73.6667	-51.6667
8939	8939	8939	5000	314768.67	-68.6667	-52.6667
8949	8949	8949	10000	623490.33	-122.333	-103.333
8949.5	8949.5	8949.5	10000	623095.33	-110.333	-103.333
8950	8950	8950	10000	622666.33	-106.333	-103.333
8950.5	8950.5	8950.5	10000	622374.33	-120.333	-104.333
8951	8951	8951	10000	622091.33	-112.333	-105.333
8951.5	8951.5	8951.5	10000	621828.33	-120.333	-104.333
8952	8952	8952	10000	621388.33	-116.333	-104.333
8952.5	8952.5	8952.5	10000	621124.33	-117.333	-106.333
8953	8953	8953	10000	620655.33	-117.333	-107.333
8953.5	8953.5	8953.5	10000	620093.33	-130.333	-105.333
8954	8954	8954	10000	619555.33	-111.333	-108.333
8954.5	8954.5	8954.5	10000	618998.33	-112.333	-104.333
8955	8955	8955	10000	618497.33	-109.333	-103.333
8955.5	8955.5	8955.5	10000	618166.33	-99.3333	-106.333
8956.001	8956	8956.001	10000	617626.33	-92.3333	-106.333
8956.5	8956.5	8956.5	10000	617042.33	-89.3333	-106.333
8957	8957	8957	10000	616631.33	-114.333	-109.333
8957.5	8957.5	8957.5	10000	616229.33	-128.333	-109.333
8958	8958	8958	10000	615829.33	-121.333	-110.333
8958.5	8958.5	8958.5	10000	615439.33	-105.333	-108.333
8958.996	8959	8958.996	10000	615107.33	-90.3333	-107.333
8959.5	8959.5	8959.5	10000	614688.33	-82.3333	-100.333
8960	8960	8960	10000	614339.33	-99.3333	-99.3333
8960.5	8960.5	8960.5	10000	613910.33	-83.3333	-90.3333
8961	8961	8961	10000	613445.33	-81.3333	-92.3333
8961.5	8961.5	8961.5	10000	613062.33	-100.333	-98.3333
8962	8962	8962	10000	612624.33	-104.333	-107.333
8962.5	8962.5	8962.5	10000	612150.33	-120.333	-113.333
8963	8963	8963	10000	611926.33	-110.333	-108.333
8963.498	8963.5	8963.498	10000	611462.33	-88.3333	-111.333
8964	8964	8964	10000	610980.33	-100.333	-111.333
8964.503	8964.5	8964.503	10000	610691.33	-95.3333	-105.333
8965	8965	8965	10000	610251.33	-96.3333	-110.333
8965.5	8965.5	8965.5	10000	609735.33	-99.3333	-106.333
8966	8966	8966	10000	609654.33	-86.3333	-106.333
8966.5	8966.5	8966.5	10000	609154.33	-86.3333	-106.333
8967	8967	8967	10000	608727.33	-113.333	-110.333
8967.5	8967.5	8967.5	10000	608125.33	-121.333	-107.333
8968	8968	8968	10000	607729.33	-124.333	-110.333
8968.5	8968.5	8968.5	10000	607289.33	-119.333	-110.333
8969	8969	8969	10000	607003.33	-107.333	-112.333
8969.5	8969.5	8969.5	10000	606576.33	-93.3333	-112.333
8970	8970	8970	10000	606201.33	-105.333	-103.333
8970.5	8970.5	8970.5	10000	605825.33	-117.333	-103.333
8971	8971	8971	10000	605577.33	-97.3333	-103.333
8971.5	8971.5	8971.5	10000	605162.33	-103.333	-98.3333
8972	8972	8972	10000	604781.33	-103.333	-106.333
8972.502	8972.5	8972.502	10000	604339.33	-116.333	-104.333
8973	8973	8973	10000	603817.33	-109.333	-110.333
8973.5	8973.5	8973.5	10000	603382.33	-130.333	-113.333
8974	8974	8974	10000	602896.33	-108.333	-107.333
8974.5	8974.5	8974.5	10000	602483.33	-118.333	-109.333
8975	8975	8975	10000	602134.33	-129.333	-101.333
8975.5	8975.5	8975.5	10000	601791.33	-118.333	-96.3333
8976	8976	8976	10000	601434.33	-123.333	-97.3333
8976.5	8976.5	8976.5	10000	601278.33	-132.333	-107.333
8977	8977	8977	10000	600911.33	-140.333	-108.333
8977.5	8977.5	8977.5	10000	600514.33	-139.333	-107.333
8978	8978	8978	10000	600035.33	-110.333	-106.333
8978.5	8978.5	8978.5	10000	599541.33	-116.333	-101.333
8979	8979	8979	10000	599082.33	-120.333	-102.333
8979.5	8979.5	8979.5	10000	598612.33	-123.333	-105.333
8980	8980	8980	10000	598015.33	-138.333	-110.333
8980.5	8980.5	8980.5	10000	597497.33	-143.333	-105.333
8981	8981	8981	10000	597122.33	-134.333	-110.333
8981.5	8981.5	8981.5	10000	596703.33	-137.333	-114.333
8982	8982	8982	10000	596295.33	-143.333	-113.333
8982.5	8982.5	8982.5	10000	595888.33	-134.333	-109.333
8983	8983	8983	10000	595624.33	-133.333	-109.333
8983.5	8983.5	8983.5	10000	595248.33	-113.333	-112.333
8984	8984	8984	10000	594752.33	-121.333	-115.333
8984.5	8984.5	8984.5	10000	594345.33	-133.333	-124.333
8985	8985	8985	10000	593902.33	-131.333	-126.333
8985.5	8985.5	8985.5	10000	593457.33	-115.333	-120.333
8986	8986	8986	10000	593012.33	-108.333	-118.333
8986.5	8986.5	8986.5	10000	592584.33	-122.333	-118.333
8987	8987	8987	10000	592115.33	-138.333	-114.333
8987.5	8987.5	8987.5	10000	591780.33	-130.333	-116.333
8988	8988	8988	10000	591365.33	-132.333	-115.333
8988.5	8988.5	8988.5	10000	590595.33	-142.333	-112.333
8989	8989	8989	10000	590159.33	-142.333	-114.333
8989.5	8989.5	8989.5	10000	589640.33	-132.333	-114.333
8990	8990	8990	10000	587005.33	-139.333	-115.333
8990.5	8990.5	8990.5	10000	583087.33	-139.333	-113.333
8991	8991	8991	10000	583509.33	-145.333	-119.333
8991.5	8991.5	8991.5	10000	582959.33	-127.333	-129.333
8991.998	8992	8991.998	10000	582251.33	-133.333	-128.333
8992.5	8992.5	8992.5	10000	584356.33	-138.333	-123.333
8993.001	8993	8993.001	10000	586274.33	-122.333	-125.333
8993.5	8993.5	8993.5	10000	586535.33	-126.333	-125.333
8994	8994	8994	10000	585983.33	-144.333	-126.333
8994.503	8994.5	8994.503	10000	585192.33	-123.333	-126.333
8995	8995	8995	10000	584339.33	-107.333	-128.333
8995.5	8995.5	8995.5	10000	582742.33	-116.333	-125.333
8996	8996	8996	10000	577944.33	-131.333	-127.333
8996.5	8996.5	8996.5	10000	574639.33	-141.333	-123.333
8997	8997	8997	10000	576391.33	-142.333	-116.333
8997.5	8997.5	8997.5	10000	575700.33	-149.333	-105.333
8998	8998	8998	10000	576909.33	-151.333	-110.333
8998.5	8998.5	8998.5	10000	581018.33	-131.333	-104.333
8999	8999	8999	10000	583846.33	-128.333	-109.333
8999.5	8999.5	8999.5	10000	584173.33	-135.333	-113.333
9000	9000	9000	10000	583663.33	-133.333	-112.333
9000.5	9000.5	9000.5	10000	582981.33	-130.333	-110.333
9001	9001	9001	10000	582535.33	-116.333	-116.333
9001.5	9001.5	9001.5	10000	581911.33	-132.333	-114.333
9002	9002	9002	10000	581411.33	-139.333	-117.333
9002.5	9002.5	9002.5	10000	580745.33	-126.333	-120.333
9003	9003	9003	10000	580335.33	-128.333	-119.333
9003.5	9003.5	9003.5	10000	579916.33	-139.333	-123.333
9004	9004	9004	10000	579509.33	-135.333	-119.333
9004.5	9004.5	9004.5	10000	579258.33	-139.333	-114.333
9005	9005	9005	10000	578938.33	-133.333	-114.333
9005.5	9005.5	9005.5	10000	578653.33	-129.333	-118.333
9006	9006	9006	10000	578385.33	-134.333	-117.333
9006.5	9006.5	9006.5	10000	577843.33	-158.333	-109.333
9007	9007	9007	10000	577354.33	-145.333	-115.333
9007.5	9007.5	9007.5	10000	577041.33	-145.333	-116.333
9008	9008	9008	10000	576550.33	-147.333	-114.333
9008.5	9008.5	9008.5	10000	576176.33	-140.333	-108.333
9009.003	9009	9009.003	10000	575832.33	-144.333	-114.333
9010.08	9010.08	9010.08	10015.363	575832.52	-141.015	-117.252
9011.17	9011.18	9011.17	10030.997	576223.51	-146.045	-114.487
9012.29	9012.29	9012.29	10046.903	576251.28	-125.422	-118.0379
9013.429	9013.43	9013.429	10063.08	576525.85	-134.147	-119.906
9014.59	9014.58	9014.59	10079.529	576681.2	-136.22	-120.0901
9015.76	9015.76	9015.76	10096.248	576747.35	-142.64	-118.591
9016.95	9016.95	9016.95	10113.239	576921.29	-152.408	-118.4083
9018.16	9018.16	9018.16	10130.502	576983.02	-143.524	-124.542
9019.4	9019.39	9019.4	10148.036	577118.54	-154.987	-125.992
9020.64	9020.65	9020.64	10165.841	577257.86	-155.798	-128.759
9021.92	9021.91	9021.92	10183.918	577470.96	-160.956	-121.843
9023.21	9023.2	9023.21	10202.266	577597.86	-146.4626	-124.2425
9024.51	9024.51	9024.51	10220.885	577723.55	-144.316	-123.959
9025.84	9025.84	9025.84	10239.776	577980.03	-129.518	-123.992
9027.18	9027.18	9027.18	10258.938	578104.3	-140.067	-135.341
9028.55	9028.55	9028.55	10278.371	578220.36	-147.964	-133.007
9029.93	9029.93	9029.93	10298.076	578327.21	-144.208	-125.989
9031.34	9031.33	9031.34	10318.052	578372.86	-142.8	-125.288
9032.75	9032.755	9032.75	10338.3	578793.29	-134.74	-126.903
9034.19	9034.2	9034.19	10358.818	578891.52	-145.027	-128.835
9035.65	9035.66	9035.65	10379.609	579221.54	-136.663	-133.083
9037.14	9037.13	9037.14	10400.67	579273.35	-147.645	-134.648
9038.63	9038.63	9038.631	10422.003	579388.95	-158.976	-132.53
9040.15	9040.15	9040.15	10443.607	579517.35	-152.654	-118.727
9041.685	9041.69	9041.685	10465.483	579627.53	-156.6792	-118.242
9043.245	9043.24	9043.245	10487.63	579752.51	-137.052	-117.073
9044.81	9044.815	9044.81	10510.048	579891.28	-128.773	-116.22
9046.41	9046.41	9046.41	10532.738	580024.84	-143.842	-117.684
9048.02	9048.02	9048.02	10555.699	580220.19	-136.258	-120.464
9049.65	9049.652	9049.65	10578.932	580351.33	-134.022	-126.561
9051.31	9051.3	9051.31	10602.436	580411.26	-128.134	-128.9741
9052.97	9052.97	9052.97	10626.211	580469.99	-134.593	-120.7039
9054.658	9054.66	9054.658	10650.257	580477.5	-127.4	-116.75
9056.36	9056.37	9056.36	10674.575	580543.81	-131.554	-119.113
9058.1	9058.09	9058.1	10699.165	580459.91	-140.0564	-115.7923
9059.84	9059.84	9059.84	10724.025	580417.8	-143.9062	-120.7881
9061.6	9061.605	9061.6	10749.157	580431.48	-147.104	-116.1004
9063.39	9063.39	9063.39	10774.561	580244.95	-142.649	-123.729
9065.19	9065.19	9065.19	10800.235	580225.22	-143.5415	-122.674
9067.02	9067.01	9067.02	10826.181	580097.28	-123.7819	-121.936
9068.85	9068.85	9068.85	10852.399	579814.12	-123.37	-128.515
9070.71	9070.71	9070.71	10878.888	579574.76	-117.306	-126.409
9072.59	9072.59	9072.59	10905.648	579217.19	-118.589	-130.621
9074.49	9074.49	9074.49	10932.679	579121.41	-124.22	-138.148
9076.41	9076.41	9076.41	10959.982	578936.43	-144.199	-139.993
9078.34	9078.35	9078.34	10987.557	578652.23	-137.525	-139.153
9080.3	9080.3	9080.3	11015.402	578281.83	-130.199	-139.631
9082.276	9082.27	9082.276	11043.519	577730.21	-143.221	-137.425
9084.27	9084.27	9084.27	11071.908	577411.39	-139.59	-134.5348
9086.28	9086.28	9086.28	11100.567	576913.36	-124.307	-121.962
9088.31	9088.31	9088.31	11129.498	576503.13	-131.371	-138.705
9090.36	9090.36	9090.36	11158.701	575861.68	-130.783	-137.765
9092.43	9092.43	9092.43	11188.175	575316.02	-121.543	-136.141
9094.52	9094.521	9094.52	11217.92	574826.16	-124.651	-134.834
9096.63	9096.63	9096.63	11247.936	574284.09	-126.106	-130.843
9098.75	9098.76	9098.75	11278.224	573475.81	-129.909	-134.169
9100.91	9100.9	9100.91	11308.783	572745.32	-131.059	-130.811
9103.07	9103.07	9103.07	11339.614	571855.62	-141.557	-136.77
9105.25	9105.25	9105.25	11370.716	571034.71	-163.403	-138.045
9107.45	9107.45	9107.45	11402.089	570251.59	-166.597	-142.6367
9109.67	9109.68	9109.67	11433.734	569435.27	-144.138	-145.545
9111.92	9111.92	9111.92	11465.65	568516.74	-125.026	-138.77
9114.179	9114.18	9114.179	11497.837	567515	-120.263	-141.311
9116.46	9116.46	9116.46	11530.296	566433.05	-126.8467	-146.169
9118.76	9118.754	9118.76	11563.026	565208.89	-127.778	-141.343
9121.07	9121.07	9121.07	11596.028	563772.52	-130.058	-143.8337
9123.41	9123.41	9123.41	11629.301	562546.94	-128.685	-150.641
9125.76	9125.76	9125.76	11662.845	560927.16	-140.659	-145.765
9128.13	9128.14	9128.13	11696.66	560510.17	-149.982	-152.205
9130.53	9130.53	9130.53	11730.747	558790.97	-140.651	-152.962
9132.94	9132.94	9132.94	11765.106	557427.56	-145.669	-154.0349
9135.37	9135.38	9135.37	11799.735	555218.94	-157.034	-150.425
9137.83	9137.83	9137.83	11834.636	554377.11	-146.747	-146.131
9140.29	9140.3	9140.29	11869.809	552614.07	-136.808	-153.1536
9142.79	9142.78	9142.79	11905.252	552235.83	-152.216	-157.493
9145.29	9145.29	9145.29	11940.968	550659.38	-163.972	-160.149
9147.82	9147.82	9147.82	11976.954	549109.71	-158.075	-155.121
9150.36	9150.37	9150.362	12013.212	547615.84	-164.526	-156.4095
9152.93	9152.93	9152.93	12049.741	545817.77	-173.325	-153.015
9155.52	9155.51	9155.52	12086.542	544130.48	-182.471	-149.936
9158.12	9158.12	9158.12	12123.614	542454.98	-179.966	-150.175
9160.74	9160.74	9160.74	12160.957	540298.28	-187.807	-154.729
9163.38	9163.38	9163.38	12198.572	538254.36	-173.997	-156.6006
9166.04	9166.04	9166.04	12236.458	536070.24	-171.534	-150.788
9168.72	9168.721	9168.72	12274.615	533876.91	-166.418	-152.293
9171.42	9171.42	9171.42	12313.044	531816.37	-163.651	-160.113
9174.14	9174.14	9174.14	12351.744	529491.63	-166.231	-159.25
9176.87	9176.87	9176.87	12390.715	527507.67	-176.158	-160.704
9179.63	9179.629	9179.63	12429.958	525004.51	-155.434	-158.474
9182.41	9182.4	9182.41	12469.472	522849.13	-182.056	-157.561
9185.2	9185.2	9185.2	12509.258	520574.55	-222.027	-157.964
9188.01	9188.01	9188.01	12549.315	518220.76	-201.345	-159.684
9190.85	9190.84	9190.85	12589.643	515551.76	-181.011	-136.72
9193.69	9193.69	9193.69	12630.243	512993.55	-178.0247	-154.073
9196.56	9196.56	9196.56	12671.114	510473.14	-203.386	-155.742
9199.45	9199.45	9199.45	12712.256	507970.51	-189.095	-156.728
9202.36	9202.36	9202.36	12753.67	505127.68	-168.1512	-158.03
9205.29	9205.29	9205.29	12795.355	502137.64	-158.555	-161.649
9208.23	9208.23	9208.23	12837.311	499352.39	-159.307	-163.584
9211.19	9211.2	9211.19	12879.539	496414.93	-171.407	-162.8355
9214.18	9214.18	9214.18	12922.038	494036.26	-172.854	-165.404
9217.19	9217.19	9217.19	12964.809	491030.38	-179.648	-171.288
9220.21	9220.208	9220.21	13007.85	487999.3	-172.791	-170.49
9223.25	9223.25	9223.25	13051.164	484723.01	-164.281	-160.007
9226.31	9226.31	9226.31	13094.748	481370.5	-161.1185	-158.8414
9229.38	9229.39	9229.38	13138.604	476729.79	-154.304	-167.992
9232.48	9232.49	9232.48	13182.732	475285.87	-156.837	-172.459
9235.6	9235.61	9235.6	13227.13	473440.75	-171.717	-173.243
9238.74	9238.74	9238.74	13271.8	469944.41	-178.946	-160.3431
9241.9	9241.898	9241.9	13316.742	465609.86	-187.522	-164.76
9245.07	9245.07	9245.07	13361.955	463352.11	-186.445	-172.493
9248.27	9248.27	9248.27	13407.439	460182.15	-189.717	-170.5426
9251.48	9251.48	9251.48	13453.194	456761.98	-190.335	-165.909
9254.71	9254.71	9254.71	13499.221	453423.6	-181.302	-159.591
9257.96	9257.96	9257.96	13545.519	450029.01	-187.616	-151.591
9261.23	9261.23	9261.23	13592.089	446623.21	-194.278	-149.906
9264.52	9264.52	9264.52	13638.93	443426.21	-202.288	-153.5384
9267.83	9267.83	9267.83	13686.042	440307	-195.645	-147.487
9271.15	9271.16	9271.15	13733.426	436992.57	-212.349	-148.752
9274.5	9274.5	9274.5	13781.081	433625.94	-208.402	-156.334
9277.87	9277.87	9277.87	13829.007	430173.1	-220.802	-157.232
9281.25	9281.25	9281.25	13877.205	426986.06	-202.55	-155.447
9284.66	9284.66	9284.66	13925.674	423897.8	-174.645	-165.9778
9288.08	9288.08	9288.08	13974.415	420822.33	-196.088	-172.825
9291.52	9291.52	9291.52	14023.426	417402.66	-208.879	-168.99
9294.98	9294.98	9294.98	14072.71	414201.78	-219.017	-180.47
9298.46	9298.46	9298.46	14122.264	410934.69	-212.503	-184.267
9301.96	9301.96	9301.96	14172.09	407662.39	-233.337	-182.381
9305.47	9305.48	9305.47	14222.187	404522.88	-226.518	-187.811
9309.01	9309.01	9309.01	14272.556	401733.16	-233.047	-184.558
9312.57	9312.57	9312.57	14323.196	398858.24	-195.924	-187.621
9316.14	9316.15	9316.14	14374.107	395682.1	-189.148	-188.001
9319.74	9319.739	9319.74	14425.29	392723.76	-200.72	-185.697
9323.35	9323.35	9323.35	14476.744	389773.21	-199.64	-191.7093
9326.98	9326.98	9326.98	14528.47	387099.45	-221.907	-188.038
9330.64	9330.64	9330.64	14580.466	384152.48	-224.5216	-183.684
9334.306	9334.31	9334.306	14632.735	381434.3	-210.484	-187.646
9337.99	9337.99	9337.99	14685.274	378431.92	-205.794	-188.9248
9341.7	9341.7	9341.7	14738.085	375605.33	-219.452	-198.52
9345.43	9345.43	9345.43	14791.167	372805.52	-223.458	-207.432
9349.18	9349.177	9349.18	14844.521	369157.51	-227.811	-200.66
9352.94	9352.94	9352.94	14898.146	369364.29	-243.511	-205.204
9356.73	9356.727	9356.73	14952.042	365846.86	-244.56	-195.065
9360.09	9360.09	9360.09	15000	363853	-249	-189